Folder: zbt_data_analysis/exp_data

Note: exp_data/20210914_opg_5mol_5cm2_ocv_100ma.txt
File.......:  20210914_opg_5mol_5cm2_ocv_100ma - SEP,14.2021

System.....:  
Potential..:  -0.272V
Current....:  235.8uA
Temperature:  -2.8 +-0.0 C
Time.......:  15:59:41 - 16:07:26
Comment....:  
              
              
              
(area/cm^2):  
               
Impedance samples

Lines:   59
Columns: 5

Number   Frequency/Hz   impedance R/Ohm   impedance I/Ohm   Significance   Time/s 
   1      1.0362e+03       9.2252e-02       -1.5785e-02        0.998           0.0
   2      1.3787e+03       9.0018e-02       -1.5410e-02        1.000           2.5
   3      1.8344e+03       8.7407e-02       -1.4545e-02        0.999           3.5
   4      2.4408e+03       8.3600e-02       -1.5240e-02        1.000           4.6
   5      3.2477e+03       7.8370e-02       -1.4636e-02        0.999           5.6
   6      4.3213e+03       7.2824e-02       -1.1202e-02        0.997           6.7
   7      5.7497e+03       6.9795e-02       -5.4395e-03        0.999           7.8
   8      7.6503e+03       7.1095e-02        1.0613e-03        0.999           8.8
   9      1.0179e+04       7.5202e-02        4.4012e-03        1.000           9.9
  10      1.3544e+04       7.8387e-02        4.8334e-03        0.999          11.1
  11      1.8021e+04       8.0390e-02        3.8816e-03        1.000          12.2
  12      2.3979e+04       8.1207e-02        3.2933e-03        0.998          13.3
  13      3.1905e+04       8.0915e-02        2.1477e-03        0.986          14.4
  14      4.2452e+04       8.1547e-02        2.4424e-03        0.997          15.5
  15      5.6484e+04       8.1817e-02        2.2478e-03        0.997          16.6
  16      7.5156e+04       7.9401e-02        1.1784e-03        0.993          17.9
  17      1.0000e+05       8.0988e-02        5.8135e-03        0.995          19.3
  18      7.5156e+04       8.0873e-02        4.0614e-03        0.995          20.4
  19      5.6484e+04       8.0795e-02        1.7170e-03        0.995          21.8
  20      4.2452e+04       8.1273e-02        2.4288e-03        0.997          23.1
  21      3.1905e+04       8.2341e-02        3.1477e-03        0.990          24.2
  22      2.3979e+04       8.0883e-02        2.9816e-03        0.997          25.4
  23      1.8021e+04       8.0019e-02        3.7963e-03        0.996          26.5
  24      1.3544e+04       7.8079e-02        4.4433e-03        0.999          27.6
  25      1.0179e+04       7.4652e-02        4.0357e-03        0.999          28.7
  26      7.6503e+03       7.0863e-02        9.9832e-04        0.999          29.7
  27      5.7497e+03       6.9845e-02       -5.5562e-03        0.999          30.7
  28      4.3213e+03       7.2220e-02       -1.1999e-02        0.998          31.8
  29      3.2477e+03       7.7561e-02       -1.4368e-02        0.998          32.8
  30      2.4408e+03       8.2895e-02       -1.5487e-02        0.998          33.8
  31      1.8344e+03       8.7317e-02       -1.5703e-02        0.998          34.9
  32      1.3787e+03       8

Note: exp_data/pol_sample_2.txt
I [A]	U [V]
5	0.6285
4.32	0.6
2.95	0.55
1.84	0.5
0.357	0.4
0.037	0.3
0.011	0.2
0.003	0.1

File: dmfc_graphenblocker_1mol_40c_200ma.txt
File.......:  dmfc_1mol_40c_200ma - JAN,19.2021

System.....:
Potential..:  -0.265V
Current....:  -44.941mA
Temperature:  -2.8 +-0.0 C
Time.......:  11:29:37 - 11:44:06
Comment....:

(area/cm^2):

Impedance samples

Lines:   77
Columns: 5

Number   Frequency/Hz   impedance R/Ohm   impedance I/Ohm   Significance   Time/s
   1      1.2117e+01       1.9598e-02       -2.7105e-02        0.999           0.0
   2      1.7058e+01       1.7272e-02       -2.0488e-02        0.999           6.4
   3      2.3713e+01       1.5716e-02       -1.5695e-02        0.999           8.4
   4      3.2576e+01       1.4618e-02       -1.2206e-02        1.000          10.1
   5      4.4261e+01       1.3786e-02       -9.6712e-03        1.000          11.7
   6      5.9520e+01       1.3125e-02       -7.8094e-03        1.000          13.1
   7      7.9271e+01       1.2544e-02       -6.4422e-03        1.000          14.4
   8      1.0548e+02       1.2030e-02       -5.3633e-03        1.000          15.4
   9      1.4034e+02       1.1568e-02       -4.5173e-03        1.000          16.0
  10      1.8673e+02       1.1127e-02       -3.8399e-03        1.000          16.5
  11      2.4846e+02       1.0729e-02       -3.2917e-03        0.999          17.1
  12      3.3059e+02       1.0358e-02       -2.8387e-03        0.999          17.8
  13      4.3987e+02       1.0029e-02       -2.4662e-03        0.999          18.3
  14      5.8528e+02       9.7168e-03       -2.1550e-03        0.999          18.9
  15      7.7875e+02       9.4408e-03       -1.8933e-03        0.999          19.4
  16      1.0362e+03       9.1750e-03       -1.6652e-03        0.999          20.0
  17      1.3787e+03       8.9355e-03       -1.4683e-03        0.999          20.6
  18      1.8344e+03       8.6989e-03       -1.2915e-03        0.999          21.1
  19      2.4408e+03       8.4670e-03       -1.1294e-03        0.999          21.7
  20      3.2477e+03       8.2064e-03       -9.6646e-04        0.999          22.2
  21      4.3213e+03       7.8869e-03       -7.5037e-04        0.998          22.8
  22      5.7497e+03       7.5229e-03       -3.5331e-04        0.998          23.4
  23      7.6503e+03       7.3040e-03        2.5160e-04        0.997          23.9
  24      1.0179e+04       7.3165e-03        8.7207e-04        0.999          24.5
  25      1.3544e+04       7.3503e-03        1.4408e-03        0.998          25.2
  26      1.8021e+04       7.3519e-03        2.0744e-03        0.997          25.7
  27      2.3979e+04       7.3111e-03        2.8786e-03        0.994          26.3
  28      3.1905e+04       7.2345e-03        3.9389e-03        0.991          26.9
  29      4.2452e+04       7.1189e-03        5.3541e-03        0.986          27.5
  30      5.6484e+04       6.9460e-03        7.2511e-03        0.980          28.0
  31      7.5156e+04       6.6634e-03        9.8391e-03        0.972          28.7
  32      1.0000e+05       7.1161e-03        1.2353e-02        0.971          29.5
  33      7.5156e+04       7.1895e-03        9.1902e-03        0.974          30.3
  34      5.6484e+04       6.9448e-03        7.2521e-03        0.979          31.1
  35      4.2452e+04       7.1170e-03        5.3531e-03        0.985          31.9
  36      3.1905e+04       7.2362e-03        3.9378e-03        0.990          32.5
  37      2.3979e+04       7.3120e-03        2.8787e-03        0.994          33.1
  38      1.8021e+04       7.3521e-03        2.0747e-03        0.997          33.6
  39      1.3544e+04       7.3515e-03        1.4411e-03        0.998          34.2
  40      1.0179e+04       7.3148e-03        8.7245e-04        0.999          34.7
  41      7.6503e+03       7.3063e-03        2.5112e-04        0.996          35.3
  42      5.7497e+03       7.5224e-03       -3.5310e-04        0.998          35.8
  43      4.3213e+03       7.8904e-03       -7.5015e-04        0.998          36.4
  44      3.2477e+03       8.2070e-03       -9.6523e-04        0.999          37.0
  45      2.4408e+03       8.4694e-03       -1.1284e-03        0.999          37.5
  46      1.8344e+03       8.7000e-03       -1.2902e-03        0.999          38.1
  47      1.3787e+03       8.9368e-03       -1.4666e-03        0.999          38.6
  48      1.0362e+03       9.1769e-03       -1.6632e-03        0.999          39.2
  49      7.7875e+02       9.4401e-03       -1.8913e-03        0.999          39.8
  50      5.8528e+02       9.7190e-03       -2.1528e-03        0.999          40.3
  51      4.3987e+02       1.0027e-02       -2.4619e-03        1.000          40.9
  52      3.3059e+02       1.0361e-02       -2.8353e-03        0.999          41.4
  53      2.4846e+02       1.0726e-02       -3.2862e-03        1.000          42.0
  54      1.8673e+02       1.1125e-02       -3.8343e-03        1.000          42.6
  55      1.4034e+02       1.1559e-02       -4.5098e-03        1.000          43.1
  56      1.0548e+02       1.2029e-02       -5.3569e-03        1.000          43.8
  57      7.9271e+01       1.2530e-02       -6.4355e-03        1.000          44.4
  58      5.9520e+01       1.3106e-02       -7.8075e-03        1.000          45.9
  59      4.4261e+01       1.3770e-02       -9.6754e-03        1.000          47.7
  60      3.2576e+01       1.4602e-02       -1.2218e-02        1.000          49.2
  61      2.3713e+01       1.5694e-02       -1.5720e-02        0.999          50.9
  62      1.7058e+01       1.7258e-02       -2.0532e-02        0.999          52.8
  63      1.2117e+01       1.9578e-02       -2.7167e-02        0.999          55.1
  64      8.4915e+00       2.3222e-02       -3.6211e-02        0.999          57.8
  65      5.8653e+00       2.8916e-02       -4.8339e-02        0.998          61.3
  66      3.9894e+00       3.7449e-02       -6.4305e-02        0.998          66.3
  67      2.6693e+00       4.9805e-02       -8.5531e-02        0.998          72.6
  68      1.7553e+00       6.7769e-02       -1.1464e-01        0.997          82.0
  69      1.1334e+00       9.6322e-02       -1.5609e-01        0.997          93.8
  70      7.1810e-01       1.4671e-01       -2.1186e-01        0.996         110.7
  71      4.4623e-01       2.3871e-01       -2.7510e-01        0.994         135.5
  72      2.7192e-01       3.8254e-01       -3.1212e-01        0.992         170.7
  73      1.6257e-01       5.4690e-01       -2.7756e-01        0.989         223.9
  74      9.5466e-02       6.5985e-01       -1.6965e-01        0.988         303.6
  75      5.5171e-02       7.3378e-01       -8.0765e-02        0.987         411.5
  76      3.1469e-02       8.2310e-01       -2.0100e-02        0.983         560.0
  77      1.7783e-02       8.0480e-01        4.3972e-02        0.982         772.0